#Magnitudes for spectra_ddc10_artis calculated by wsynphot
#with vega calibration file: https://archive.stsci.edu/hlsps/reference-atlases/cdbs/calspec/alpha_lyr_stis_003.fits 
#and with scipy 1D interpolation kind='cubic'.
#U,B,V,R,I are Generic Bessell filters and J, H, K are 2MASS filters, taken from http://svo2.cab.inta-csic.es/theory/fps/index.php 
#
#NTIMES: 145
#NBANDS: 8
#time[d] U B V R I J H K
4.140000e+00 -14.219841 -15.419153 -16.378365 -16.603994 -16.549850 -16.690552 -16.750033 -16.625488
4.220000e+00 -14.354940 -15.424639 -16.421918 -16.731712 -16.492203 -16.759976 -16.851861 -16.538999
4.310000e+00 -14.508058 -15.544159 -16.507075 -16.752396 -16.620020 -16.882191 -16.726748 -16.678036
4.400000e+00 -14.486468 -15.614983 -16.536615 -16.812193 -16.652996 -16.941986 -16.756035 -17.023410
4.490000e+00 -14.674673 -15.677518 -16.587200 -16.873409 -16.677662 -16.883715 -16.992899 -17.047262
4.580000e+00 -14.713159 -15.781151 -16.673856 -16.953336 -16.845980 -17.016573 -17.006374 -16.822036
4.680000e+00 -14.788532 -15.843714 -16.670997 -16.996577 -16.740906 -16.991945 -16.868141 -17.333206
4.770000e+00 -14.844543 -15.883610 -16.747085 -17.069945 -16.887315 -17.105339 -17.180211 -17.098479
4.870000e+00 -14.854455 -15.892866 -16.808951 -17.081694 -16.931913 -17.167056 -17.121350 -16.969605
4.970000e+00 -14.961547 -16.017928 -16.919371 -17.170637 -16.999376 -17.193893 -17.108443 -17.161332
5.080000e+00 -15.087530 -16.031477 -16.931034 -17.213003 -17.048578 -17.288366 -17.099073 -17.146143
5.180000e+00 -15.139661 -16.127824 -17.029786 -17.290081 -17.168528 -17.397198 -17.196171 -17.188589
5.290000e+00 -15.204553 -16.198307 -17.036986 -17.324494 -17.208469 -17.383269 -17.211783 -17.284973
5.400000e+00 -15.285545 -16.251621 -17.098480 -17.404757 -17.176771 -17.343465 -17.312430 -17.494459
5.510000e+00 -15.394763 -16.351323 -17.137568 -17.447882 -17.292550 -17.392435 -17.383057 -17.334494
5.620000e+00 -15.551630 -16.425558 -17.206325 -17.511685 -17.325742 -17.489039 -17.365903 -17.356856
5.740000e+00 -15.595656 -16.483921 -17.246186 -17.545141 -17.415093 -17.533261 -17.434639 -17.555961
5.860000e+00 -15.655265 -16.541547 -17.318211 -17.593680 -17.474355 -17.514347 -17.498853 -17.449085
5.980000e+00 -15.749154 -16.618963 -17.346620 -17.652888 -17.518700 -17.563589 -17.447697 -17.507137
6.100000e+00 -15.742682 -16.656790 -17.452671 -17.711159 -17.597018 -17.648191 -17.581191 -17.660375
6.230000e+00 -15.919195 -16.720128 -17.489323 -17.776195 -17.642472 -17.706162 -17.553926 -17.538711
6.360000e+00 -15.925909 -16.776376 -17.479633 -17.815712 -17.675643 -17.728816 -17.709705 -17.648238
6.490000e+00 -16.011496 -16.863050 -17.544443 -17.890801 -17.731801 -17.718827 -17.639299 -17.609213
6.620000e+00 -16.093614 -16.938874 -17.625328 -17.920012 -17.801083 -17.792500 -17.615956 -17.573251
6.760000e+00 -16.185444 -16.987424 -17.651739 -17.968813 -17.853581 -17.887525 -17.671003 -17.773504
6.900000e+00 -16.209612 -17.053951 -17.706827 -18.042806 -17.880858 -17.909465 -17.693596 -17.632847
7.040000e+00 -16.338836 -17.134408 -17.774501 -18.078659 -17.991762 -17.954856 -17.839203 -17.668935
7.190000e+00 -16.381052 -17.188766 -17.827239 -18.139282 -18.043123 -17.878265 -17.909795 -17.759721
7.340000e+00 -16.486773 -17.247986 -17.875069 -18.178474 -18.091543 -17.997683 -17.819909 -17.762421
7.490000e+00 -16.580865 -17.322425 -17.915405 -18.233913 -18.152164 -18.012925 -17.815889 -17.940062
7.650000e+00 -16.638987 -17.379741 -17.957237 -18.274661 -18.192974 -18.050886 -17.820407 -17.861039
7.800000e+00 -16.705431 -17.421139 -18.002370 -18.328104 -18.286961 -18.096937 -17.982494 -17.842035
7.960000e+00 -16.821402 -17.504811 -18.056629 -18.363864 -18.328532 -18.041823 -17.946261 -17.893033
8.130000e+00 -16.861257 -17.582709 -18.110276 -18.414777 -18.358534 -18.134018 -18.025531 -17.952251
8.300000e+00 -16.895385 -17.606194 -18.142846 -18.465978 -18.437282 -18.193228 -17.965432 -17.948804
8.470000e+00 -16.959688 -17.663156 -18.203970 -18.511339 -18.477406 -18.136549 -17.993978 -17.957510
8.640000e+00 -17.052274 -17.728062 -18.264678 -18.550978 -18.516862 -18.193618 -18.028651 -17.984645
8.820000e+00 -17.131033 -17.799118 -18.303849 -18.578117 -18.577368 -18.244261 -18.057527 -18.089686
9.010000e+00 -17.160722 -17.850070 -18.344289 -18.635855 -18.620183 -18.228859 -18.021061 -18.115813
9.190000e+00 -17.232818 -17.892302 -18.393145 -18.665472 -18.641293 -18.265210 -18.098981 -18.001970
9.380000e+00 -17.331093 -17.954844 -18.439052 -18.723493 -18.670491 -18.304860 -18.150621 -18.078771
9.580000e+00 -17.395686 -18.015797 -18.482572 -18.745977 -18.744009 -18.309400 -18.067370 -18.027271
9.770000e+00 -17.423027 -18.067093 -18.520505 -18.788183 -18.782772 -18.322105 -18.115473 -18.065350
9.980000e+00 -17.500274 -18.116098 -18.563273 -18.834707 -18.795147 -18.293033 -18.064673 -18.075586
1.018000e+01 -17.563452 -18.159348 -18.600817 -18.873115 -18.851520 -18.359412 -18.060248 -18.035788
1.039000e+01 -17.615852 -18.214834 -18.644585 -18.891882 -18.868669 -18.387910 -18.093255 -17.953375
1.061000e+01 -17.653421 -18.271430 -18.689947 -18.926948 -18.924156 -18.346495 -18.108904 -17.992559
1.083000e+01 -17.708353 -18.311148 -18.729294 -18.961250 -18.944238 -18.360704 -18.150902 -18.107144
1.105000e+01 -17.793090 -18.352196 -18.766719 -18.987896 -18.969952 -18.377671 -18.100175 -18.063959
1.128000e+01 -17.839119 -18.402325 -18.815908 -19.024889 -18.977316 -18.354175 -18.154186 -18.136624
1.151000e+01 -17.847924 -18.441354 -18.843061 -19.048705 -19.000922 -18.366443 -18.072696 -18.125532
1.175000e+01 -17.917622 -18.487445 -18.889661 -19.082490 -19.048463 -18.318061 -18.169272 -18.016060
1.199000e+01 -17.952256 -18.535992 -18.924927 -19.112062 -19.068844 -18.366447 -18.067117 -18.164828
1.224000e+01 -17.992964 -18.571485 -18.967786 -19.138715 -19.083753 -18.337412 -18.105981 -18.104445
1.250000e+01 -18.030760 -18.602852 -19.009973 -19.168627 -19.105318 -18.377868 -18.049180 -18.095950
1.275000e+01 -18.062848 -18.641340 -19.045625 -19.188324 -19.124313 -18.386553 -18.035948 -18.020558
1.302000e+01 -18.108199 -18.675029 -19.074430 -19.214690 -19.150503 -18.337131 -18.037288 -18.037803
1.329000e+01 -18.145178 -18.706171 -19.114985 -19.260190 -19.184794 -18.314615 -18.013104 -18.062915
1.356000e+01 -18.172192 -18.735011 -19.137621 -19.273814 -19.179848 -18.281029 -17.991946 -18.014962
1.384000e+01 -18.208318 -18.774853 -19.177398 -19.292289 -19.210321 -18.280195 -18.042738 -17.988033
1.413000e+01 -18.236938 -18.797935 -19.202743 -19.310755 -19.212327 -18.253209 -18.002975 -17.981939
1.442000e+01 -18.266565 -18.823833 -19.237727 -19.339565 -19.237029 -18.261909 -17.911621 -17.896965
1.472000e+01 -18.280215 -18.834730 -19.262031 -19.365324 -19.232815 -18.237782 -17.913251 -17.959150
1.502000e+01 -18.303666 -18.857490 -19.296075 -19.379196 -19.244966 -18.202422 -17.893636 -17.867705
1.534000e+01 -18.320744 -18.874452 -19.318321 -19.390690 -19.241971 -18.178078 -17.937890 -17.916089
1.565000e+01 -18.310544 -18.885699 -19.344606 -19.429045 -19.273961 -18.210204 -17.941888 -17.860344
1.598000e+01 -18.314180 -18.902004 -19.374022 -19.433728 -19.287855 -18.132870 -17.893278 -17.809168
1.631000e+01 -18.327310 -18.924770 -19.393827 -19.460007 -19.294158 -18.115525 -17.889392 -17.824092
1.664000e+01 -18.326050 -18.940384 -19.422064 -19.467371 -19.306714 -18.101685 -17.846744 -17.798958
1.699000e+01 -18.358918 -18.946323 -19.441131 -19.493638 -19.331316 -18.067499 -17.846588 -17.810463
1.734000e+01 -18.355745 -18.958727 -19.466527 -19.500364 -19.324671 -18.003769 -17.846747 -17.701217
1.770000e+01 -18.332262 -18.945889 -19.481042 -19.519801 -19.328526 -17.981353 -17.755145 -17.700313
1.806000e+01 -18.307157 -18.945487 -19.502886 -19.535124 -19.350607 -17.948965 -17.806613 -17.745577
1.844000e+01 -18.284243 -18.936228 -19.521576 -19.557900 -19.353541 -17.946354 -17.771723 -17.664458
1.882000e+01 -18.283218 -18.933362 -19.532370 -19.561032 -19.386489 -17.911473 -17.809104 -17.668171
1.921000e+01 -18.284885 -18.927331 -19.540014 -19.570142 -19.396419 -17.862297 -17.835509 -17.642111
1.961000e+01 -18.246164 -18.915954 -19.554229 -19.586443 -19.404804 -17.835438 -17.850107 -17.738124
2.001000e+01 -18.219555 -18.900002 -19.575664 -19.587186 -19.400136 -17.825467 -17.860922 -17.672580
2.042000e+01 -18.190148 -18.878831 -19.578720 -19.598055 -19.412504 -17.795815 -17.871192 -17.637538
2.085000e+01 -18.181339 -18.859946 -19.583737 -19.607043 -19.410360 -17.777851 -17.848642 -17.630121
2.128000e+01 -18.120304 -18.832563 -19.588877 -19.610575 -19.425118 -17.742951 -17.887092 -17.597328
2.172000e+01 -18.090092 -18.808675 -19.594494 -19.624131 -19.439754 -17.767329 -17.928888 -17.645009
2.217000e+01 -18.054130 -18.779130 -19.594491 -19.625838 -19.460721 -17.719604 -17.972215 -17.666501
2.263000e+01 -17.998516 -18.747105 -19.595540 -19.623667 -19.444835 -17.728635 -18.019024 -17.732106
2.309000e+01 -17.922430 -18.706190 -19.580535 -19.622723 -19.470114 -17.772990 -18.067905 -17.706215
2.357000e+01 -17.873522 -18.662789 -19.579117 -19.633266 -19.484005 -17.771647 -18.169622 -17.826989
2.406000e+01 -17.808826 -18.610282 -19.569406 -19.627360 -19.498702 -17.758917 -18.160309 -17.756540
2.456000e+01 -17.744847 -18.569926 -19.549729 -19.633348 -19.498458 -17.804064 -18.222221 -17.919200
2.506000e+01 -17.677372 -18.519257 -19.533132 -19.624083 -19.505841 -17.735590 -18.316390 -17.948488
2.558000e+01 -17.615252 -18.474470 -19.517462 -19.615937 -19.521408 -17.760148 -18.363797 -17.944535
2.611000e+01 -17.498689 -18.406881 -19.488240 -19.597450 -19.519129 -17.749077 -18.413461 -18.041072
2.665000e+01 -17.395369 -18.333287 -19.463740 -19.593219 -19.522318 -17.785860 -18.514598 -18.120831
2.720000e+01 -17.329397 -18.279491 -19.436440 -19.586738 -19.524534 -17.760740 -18.614681 -18.177407
2.777000e+01 -17.241531 -18.228880 -19.402430 -19.565176 -19.533847 -17.724556 -18.713348 -18.255592
2.834000e+01 -17.123432 -18.139772 -19.365832 -19.550036 -19.530117 -17.694474 -18.779772 -18.322305
2.893000e+01 -16.974756 -18.055174 -19.327799 -19.531594 -19.519646 -17.696648 -18.898318 -18.403772
2.952000e+01 -16.895229 -17.995254 -19.275743 -19.511993 -19.509448 -17.642156 -18.940507 -18.478279
3.014000e+01 -16.771305 -17.886676 -19.233678 -19.495199 -19.513582 -17.683463 -19.020554 -18.562434
3.076000e+01 -16.662124 -17.804411 -19.180189 -19.467414 -19.506097 -17.685524 -19.082880 -18.587520
3.139000e+01 -16.555751 -17.717084 -19.122953 -19.438223 -19.486764 -17.677528 -19.142569 -18.708318
3.204000e+01 -16.408579 -17.611294 -19.066011 -19.410496 -19.489244 -17.778244 -19.184059 -18.786773
3.271000e+01 -16.311505 -17.511561 -18.996041 -19.377545 -19.477094 -17.783898 -19.262538 -18.819406
3.338000e+01 -16.163617 -17.410837 -18.934922 -19.348030 -19.465392 -17.848250 -19.299612 -18.850928
3.407000e+01 -16.051939 -17.314466 -18.872913 -19.307654 -19.423761 -17.905082 -19.350170 -18.931837
3.478000e+01 -15.922964 -17.214525 -18.791001 -19.257031 -19.417910 -17.963861 -19.377528 -19.041225
3.550000e+01 -15.816544 -17.073019 -18.717706 -19.204601 -19.393193 -18.010520 -19.418885 -19.073985
3.623000e+01 -15.713045 -16.997532 -18.641966 -19.160718 -19.345779 -18.082050 -19.417136 -19.088954
3.698000e+01 -15.575688 -16.899658 -18.580970 -19.116185 -19.336810 -18.170235 -19.433207 -19.134459
3.775000e+01 -15.434740 -16.807787 -18.497503 -19.053247 -19.307114 -18.213720 -19.446618 -19.124204
3.853000e+01 -15.281222 -16.691969 -18.416648 -18.988541 -19.238501 -18.249590 -19.425328 -19.153849
3.932000e+01 -15.229663 -16.603541 -18.342308 -18.924860 -19.192587 -18.278693 -19.414788 -19.131205
4.014000e+01 -15.189479 -16.517234 -18.265546 -18.866680 -19.166837 -18.319199 -19.378601 -19.167132
4.097000e+01 -15.079832 -16.399745 -18.201413 -18.811199 -19.136905 -18.377339 -19.348505 -19.073892
4.181000e+01 -15.009489 -16.346234 -18.130782 -18.737125 -19.074472 -18.373997 -19.305783 -19.040884
4.268000e+01 -14.919652 -16.267393 -18.040279 -18.655337 -19.014385 -18.369614 -19.272940 -18.968216
4.356000e+01 -14.803807 -16.197537 -17.989974 -18.586827 -18.969544 -18.323324 -19.172908 -18.931984
4.446000e+01 -14.693588 -16.131801 -17.908066 -18.520188 -18.925733 -18.254559 -19.089447 -18.802338
4.538000e+01 -14.559176 -16.078162 -17.854629 -18.452368 -18.871189 -18.188358 -19.035789 -18.704815
4.632000e+01 -14.596730 -16.007322 -17.790016 -18.385890 -18.813974 -18.079761 -18.914541 -18.579000
4.728000e+01 -14.460694 -15.972900 -17.741712 -18.332123 -18.766538 -17.958250 -18.798274 -18.429239
4.826000e+01 -14.408270 -15.913723 -17.689617 -18.268718 -18.727092 -17.832050 -18.726760 -18.292595
4.926000e+01 -14.327765 -15.900004 -17.675028 -18.214587 -18.680490 -17.666346 -18.580556 -18.100024
5.027000e+01 -14.302854 -15.888002 -17.616177 -18.144425 -18.619439 -17.583693 -18.436038 -17.950425
5.131000e+01 -14.249027 -15.855963 -17.576341 -18.087825 -18.585924 -17.465802 -18.269762 -17.688764
5.238000e+01 -14.182777 -15.861943 -17.558743 -18.023540 -18.543335 -17.353623 -18.172104 -17.561638
5.346000e+01 -14.113854 -15.835342 -17.538729 -17.968110 -18.526192 -17.298779 -18.060321 -17.405652
5.456000e+01 -14.184552 -15.834767 -17.521639 -17.919597 -18.486332 -17.221398 -17.899815 -17.169672
5.569000e+01 -14.141369 -15.844090 -17.493399 -17.848192 -18.424146 -17.140326 -17.771704 -17.013745
5.684000e+01 -13.995242 -15.831446 -17.476445 -17.790160 -18.386274 -17.004914 -17.621677 -16.954868
5.802000e+01 -14.128733 -15.835080 -17.462524 -17.735947 -18.333249 -16.900489 -17.610288 -16.760738
5.922000e+01 -14.089495 -15.853857 -17.429376 -17.668436 -18.288979 -16.816720 -17.430347 -16.665764
6.045000e+01 -13.971947 -15.868182 -17.431986 -17.621303 -18.254466 -16.720617 -17.315122 -16.548242
6.170000e+01 -14.036287 -15.840749 -17.412206 -17.561008 -18.235516 -16.630862 -17.227040 -16.442360
6.297000e+01 -14.011187 -15.857768 -17.389029 -17.494814 -18.189248 -16.547557 -17.144338 -16.345928
6.427000e+01 -14.060974 -15.862489 -17.357661 -17.433847 -18.162869 -16.468492 -17.002232 -16.190941
6.560000e+01 -14.041289 -15.824096 -17.312992 -17.356667 -18.114422 -16.390842 -16.897679 -16.076917
6.696000e+01 -13.900179 -15.826420 -17.301955 -17.301756 -18.084778 -16.378606 -16.802682 -15.946361
6.835000e+01 -13.931973 -15.798117 -17.260007 -17.230650 -18.044290 -16.322741 -16.609950 -15.840775
6.976000e+01 -13.999141 -15.799416 -17.237410 -17.168860 -18.004912 -16.183006 -16.519920 -15.716778
7.120000e+01 -13.935403 -15.764644 -17.191730 -17.074601 -17.955024 -16.186480 -16.502085 -15.589665
7.267000e+01 -13.846270 -15.750336 -17.160206 -17.011105 -17.914410 -16.062186 -16.409233 -15.713551
7.418000e+01 -13.897566 -15.732103 -17.119472 -16.948790 -17.888459 -15.986208 -16.333959 -15.530953
7.571000e+01 -13.824084 -15.709296 -17.076369 -16.858616 -17.855550 -15.971490 -16.180009 -15.268016
7.728000e+01 -13.737390 -15.674193 -17.048562 -16.792923 -17.817892 -15.971875 -16.170154 -15.373869
7.888000e+01 -13.716944 -15.657380 -17.000745 -16.725940 -17.771925 -15.882212 -15.974526 -15.169107
